STUDYID,DOMAIN,USUBJID,CMSEQ,CMTRT,CMDECOD,CMCAT,CMINDC,CMDOS,CMDOSU,CMDOSFRQ,CMSTDTC,CMENDTC
ATLAS-001,CM,042-S07-001,1,Paracetamol 500mg,PARACETAMOL,ANALGESIC,Headache,500,mg,PRN,2026-01-20,2026-01-22
ATLAS-001,CM,042-S07-002,1,Cetirizine 10mg,CETIRIZINE,ANTIHISTAMINE,Severe Cutaneous Rash,10,mg,QD,2026-02-05,2026-02-18
ATLAS-001,CM,042-S07-002,2,Ursodeoxycholic Acid,URSODEOXYCHOLIC ACID,HEPATOPROTECTIVE,Drug-induced Hepatotoxicity,300,mg,BID,2026-02-09,2026-03-05
ATLAS-001,CM,042-S07-003,1,Ibuprofen 400mg,IBUPROFEN,NSAID,Arthralgia,400,mg,TID,2026-02-12,2026-02-15
ATLAS-001,CM,042-S07-005,1,Amlodipine 5mg,AMLODIPINE,ANTIHYPERTENSIVE,Hypertension,5,mg,QD,2026-01-25,2026-04-25
