STUDYID,DOMAIN,USUBJID,EXSEQ,EXTRT,EXDOSE,EXDOSU,EXDOSFRM,EXDOSFRQ,VISIT,VISITNUM,EXSTDTC,EXENDTC
ATLAS-001,EX,042-S07-001,1,Experimental Drug,50,mg,TABLET,QD,Visit 1,1,2026-01-10,2026-01-24
ATLAS-001,EX,042-S07-001,2,Experimental Drug,50,mg,TABLET,QD,Visit 2,2,2026-01-24,2026-02-07
ATLAS-001,EX,042-S07-001,3,Experimental Drug,50,mg,TABLET,QD,Visit 3,3,2026-02-07,2026-04-10
ATLAS-001,EX,042-S07-002,1,Experimental Drug,50,mg,TABLET,QD,Visit 1,1,2026-01-12,2026-01-26
ATLAS-001,EX,042-S07-002,2,Experimental Drug,25,mg,TABLET,QD,Visit 2,2,2026-01-26,2026-02-09
ATLAS-001,EX,042-S07-003,1,Standard Care,100,mg,CAPSULE,BID,Visit 1,1,15-01-2026,2026-03-20
ATLAS-001,EX,042-S07-005,1,Experimental Drug,50,mg,TABLET,QD,Visit 1,1,2026-01-25,2026-04-25
ATLAS-001,EX,042-S07-006,1,Placebo Control,0,mg,TABLET,QD,Visit 1,1,2026-02-01,2026-05-01
