STUDYID,DOMAIN,USUBJID,VSSEQ,VSTESTCD,VSTEST,VSORRES,VSORRESU,VSSTRESN,VSSTRESU,VISIT,VISITNUM,VSDTC
ATLAS-001,VS,042-S07-001,1,SYSBP,Systolic Blood Pressure,124,mmHg,124,mmHg,Screening,1,2026-01-10
ATLAS-001,VS,042-S07-001,2,DIABP,Diastolic Blood Pressure,82,mmHg,82,mmHg,Screening,1,2026-01-10
ATLAS-001,VS,042-S07-001,3,PULSE,Pulse Rate,72,beats/min,72,beats/min,Screening,1,2026-01-10
ATLAS-001,VS,042-S07-002,1,SYSBP,Systolic Blood Pressure,118,mmHg,118,mmHg,Screening,1,2026-01-12
ATLAS-001,VS,042-S07-002,2,TEMP,Temperature,"38,4",C,38.4,C,Visit 2,2,2026-01-26
ATLAS-001,VS,042-S07-003,1,SYSBP,Systolic Blood Pressure,136,mmHg,136,mmHg,Screening,1,15-01-2026
ATLAS-001,VS,042-S07-004,1,SYSBP,Systolic Blood Pressure,112,mmHg,112,mmHg,Screening,1,20/01/2026
ATLAS-001,VS,042-S07-005,1,SYSBP,Systolic Blood Pressure,158,mmHg,158,mmHg,Screening,1,2026-01-25
