STUDYID,DOMAIN,USUBJID,AESEQ,AETERM,AEDECOD,AEBODSYS,AESTDTC,AEENDTC,AESEV,AESER,AEREL,AEOUT,AEACN
ATLAS-001,AE,042-S07-001,1,Tension Headache,HEADACHE,NERVOUS SYSTEM DISORDERS,2026-01-20,2026-01-22,MILD,N,POSSIBLE,RECOVERED,DOSE NOT CHANGED
ATLAS-001,AE,042-S07-002,1,Severe Cutaneous Rash,RASH ERYTHEMATOUS,SKIN AND SUBCUTANEOUS TISSUE,2026-02-05,2026-02-18,SEVERE,Y,RELATED,RECOVERED WITH SEQUELAE,DOSE REDUCED
ATLAS-001,AE,042-S07-002,2,Drug-induced Hepatotoxicity,HEPATIC ENZYME INCREASED,HEPATOBILIARY DISORDERS,2026-02-08,2026-03-01,SEVERE,Y,RELATED,RECOVERING,DRUG WITHDRAWN
ATLAS-001,AE,042-S07-003,1,Mild Arthralgia,ARTHRALGIA,MUSCULOSKELETAL DISORDERS,2026-02-12,2026-02-16,MILD,N,NOT RELATED,RECOVERED,DOSE NOT CHANGED
ATLAS-001,AE,042-S07-005,1,Fatigue syndrome,FATIGUE,GENERAL DISORDERS,2026-02-28,2026-03-10,MODERATE,N,POSSIBLE,RECOVERED,DOSE NOT CHANGED
ATLAS-001,AE,042-S07-006,1,Episodic Nausea,NAUSEA,GASTROINTESTINAL DISORDERS,2026-02-15,2026-02-16,MILD,N,NOT RELATED,RECOVERED,DOSE NOT CHANGED
ATLAS-001,AE,042-S07-007,1,Lightheadedness,DIZZINESS,NERVOUS SYSTEM DISORDERS,2026-02-25,2026-02-26,MODERATE,N,NOT RELATED,RECOVERED,DOSE NOT CHANGED
ATLAS-001,AE,042-S07-008,1,Severe Neutropenia,NEUTROPENIA,BLOOD AND LYMPHATIC SYSTEM,2026-03-02,2026-03-15,SEVERE,Y,PROBABLE,RECOVERED,DOSE INTERRUPTED
ATLAS-001,AE,042-S07-010,1,Watery Diarrhea,DIARRHOEA,GASTROINTESTINAL DISORDERS,2026-03-01,2026-03-04,MILD,N,POSSIBLE,RECOVERED,DOSE NOT CHANGED
